time,z,ax,ay,az
0.0,475.5751953125,0.0,0.0,0.0
0.0022950976021711466,475.5751953125,-3.851859888774472e-34,2.168404344971009e-19,0.0
0.004590195204342293,475.5751953125,0.0,1.734723475976807e-18,0.0
0.005508234245210752,475.5751953125,0.0,1.734723475976807e-18,-1.3877787807814457e-17
0.00642627328607921,475.5751953425614,1.242233357998365e-19,0.003120606035532568,0.03566869020244984
0.007383130066407936,475.57519673549876,5.179325854004586e-18,0.1301094952565097,1.487158335867785
0.008339986846736662,475.5752008190291,1.0234582518554535e-17,0.25710225677742055,2.938692242123893
0.010253700407394114,475.57521702538867,2.034561863852747e-17,0.5111009128134786,5.841910165447123
0.012167413968051566,475.5752546267842,3.0457456503847916e-17,0.7651197094404385,8.74535829677777
0.014081127528709018,475.5753242565546,4.057025567838068e-17,1.0191626550503148,11.649082452246214
0.0175707711603105,475.5755723272235,5.901424755267044e-17,1.4824929302509318,16.944971731242074
0.021060414791911983,475.5760267507868,7.746234837703135e-17,1.9459264261142042,22.242040827810808
0.024550058423513467,475.576752034276,9.591613197077264e-17,2.4095026784065507,27.54074163783041
0.031529345686716434,475.5792325543131,1.24915282579653e-16,3.1379883838433185,35.86737135278666
0.0366244104360334,475.5821134441244,1.2546851596597706e-16,3.1518861239268534,36.026223248831656
0.040673935854279704,475.5850803238741,1.2590840317110724e-16,3.1629364897080037,36.15252950767484
0.04472346127252601,475.58863860488594,1.2634852819066354e-16,3.1739928709816985,36.278904523912445
0.04877298669077231,475.59279186401744,1.2678874874958059e-16,3.18505146791458,36.40530486525044
0.052822512109018616,475.59754212126825,1.272290470634752e-16,3.1961122446039854,36.5317301213195
0.06092156294551123,475.6088419229414,1.2810960398659506e-16,3.218235571635035,36.78460090639548
0.06902061378200385,475.6225545867559,1.2898787127377936e-16,3.2402843987845174,37.036620153928624
0.07711966461849645,475.638696661499,1.2986539740713482e-16,3.262350800977812,37.28884028513175
0.08521871545498906,475.65728468461225,1.3073445321101773e-16,3.2844369016538684,37.54128557102312
0.1662092238199152,475.98132218768177,1.3877787807814457e-16,3.5044697578623523,40.05627262581206
0.24719973218484134,476.5680966588462,1.457167719820518e-16,3.7235256713436886,42.560093174132895
0.3281902405497675,477.4340365787352,1.8041124150158794e-16,3.9415798240488025,45.05246354438666
0.3872045320083858,478.2501940256907,1.1102230246251565e-16,4.099708237100682,46.85987957612229
0.39257665561860333,478.333177110421,-0.02998907257603449,4.915442074880501,46.93864132757014
0.3979487792288209,478.41751956302977,-0.03030394476510007,4.928879788192171,47.10261330263123
0.408693026449256,478.58893267370627,-0.030761116190723536,4.956024389003095,47.43076294847239
0.4194372736696911,478.76582114459285,-0.030866949769433143,4.983739802213058,47.75919342630385
0.4301815208901262,478.94822285003426,-0.030604662281407242,5.0119442283696225,48.086523846458434
0.4790516565510718,479.84843972607365,-0.02432093424541467,5.148583329361607,49.57395787333996
0.5279217922120174,480.86708536664554,-0.008484059323397993,5.301645412670346,51.0544113364485
0.576791927872963,482.0076624837712,0.018460005379086982,5.475641915237597,52.52843805836819
0.6256620635339085,483.2736911490052,0.05795222833547969,5.675296542940912,53.99528794257434
0.6515519198353952,483.9964689247255,0.08438870738276075,5.793139550583056,54.76902744589293
0.6774417761368818,484.75595715659756,0.1148267052075482,5.920252956894916,55.54046590213711
0.7033316324383685,485.5526729173383,0.14935962409988526,6.057304080042288,56.309558176752475
0.7373669407430263,486.6575968472661,0.2010589740413302,6.253632043961605,57.316632562237174
0.7714022490476842,487.82891514994344,0.2598788620367075,6.469401373875477,58.3191055659018
0.805437557352342,489.06778884143597,0.325588068694281,6.705477077508714,59.31614565399867
0.8258788582986732,489.84476051726443,0.3682197121844894,6.857289839440796,59.91203234412088
0.8463201592450045,490.646766122761,0.4130425187243309,7.01676491037315,60.50676678167776
0.8667614601913357,491.47405406780643,0.45986793913896445,7.183766151384659,61.099424470404074
0.8970147460642236,492.7453191077259,0.5324233438068497,7.444528870298657,61.97271123754727
0.9272680319371115,494.0733277782239,0.6079716575699192,7.720675731309193,62.84151637337024
0.9575213178099994,495.4588525079931,0.6854386821576355,8.010900836727172,63.7058327528318
0.9877746036828873,496.90268431587367,0.7635219896530347,8.313271347443658,64.5652884715662
1.0180278895557753,498.4056098632346,0.8407285900778105,8.625289360100812,65.41986534393207
1.0482811754286632,499.96841158424974,0.9154039979284778,8.944013793427317,66.27128218750207
1.078534461301551,501.59186850054533,0.98574157201094,9.265668858128326,67.11893964110763
1.1251638697396358,504.21468588278697,1.0812761632392256,9.756953199041588,68.41754643550529
1.1717932781777205,506.9862645795991,1.155131422267073,10.22773244696103,69.71349970584137
1.2184226866158052,509.9094197686246,1.200909524702154,10.658228156763288,71.00370522140717
1.26505209505389,512.9869607827427,1.2139391364594971,11.030547915073232,72.29682162938758
1.2804549641574425,514.037959380038,1.2105192879210884,11.137605467071955,72.72359943454687
1.2958578332609951,515.1062115321964,1.2032425027588576,11.236023744185172,73.15081232756158
1.3112607023645477,516.191818597257,1.1921544341724621,11.325375548414929,73.57804258068681
1.3257190540858643,517.2267359535651,1.1783710044258835,11.400857223980832,73.98003705603875
1.340177405807181,518.2771184230576,1.1614353499323131,11.468012154858132,74.38267874762815
1.3546357575284975,519.3430501856748,1.1415113379423318,11.526793633057876,74.78616236533763
1.3688219033339422,520.404107841085,1.1192349322876403,11.576206276767778,75.1817687408417
1.3830080491393868,521.4802955850703,1.0944930420501706,11.617598026161215,75.5774162755858
1.3971941949448314,522.571693014106,1.0675493714646347,11.651118950836405,75.97258106233272
1.4251944244991477,524.770784062,1.0090434998981752,11.69571142071517,76.75370589234748
1.453194654053464,527.0300638807781,0.9459992171045088,11.714972266848358,77.53478624069206
1.4811948836077802,529.3501320413623,0.8815867494146357,11.714246217275479,78.31648080557873
1.5091951131620964,531.7316011973797,0.8193544739266161,11.700231435669151,79.09754227176914
1.523424538028579,532.9655721691819,0.7897765500929224,11.690490387197089,79.49282413774647
1.5376539628950614,534.215638478548,0.7621889604001315,11.680365921505537,79.8862609112391
1.5518833877615439,535.4818798213014,0.7370646108554627,11.671150515070735,80.27848536720136
1.5921796775128185,539.156156439712,0.6827668711190553,11.660018930663586,81.38234864101358
1.622586989524224,542.0161478036409,0.6625944102672756,11.679963877472145,82.20582034957773
1.6529943015356294,544.9521441851099,0.6628741308895687,11.735782310021118,83.0197561544184
1.6834016135470349,547.9649001194712,0.6844614778189057,11.835933263254244,83.82298339017963
1.7138089255584403,551.0551581790537,0.7263377717185,11.985375133130235,84.61471851541239
1.7442162375698458,554.2236504489518,0.7855765612569412,12.184921113728329,85.39464744024043
1.7746235495812512,557.4710981240491,0.8573850051938168,12.430591526927653,86.16300576143175
1.8050308615926567,560.7982117864159,0.9363472611357957,12.712837475814638,86.92076786485194
1.8437315576595839,565.1491002825362,1.0514231483652332,13.092926343960476,87.87383023328876
1.882432253726511,569.6315998554849,1.1481056739930933,13.47622164821815,88.81674495253976
1.9211329497934382,574.2471232971575,1.201676044794584,13.831673270767547,89.75399577510704
1.9598336458603653,578.9970751030672,1.1974275211066343,14.129506538460024,90.6890947200834
1.9985343419272925,583.8828561488618,1.1314961778473405,14.349287538599755,91.62582339935365
2.009000473794953,585.2276720918142,1.1040060938639258,14.394176108148256,91.87873322987554
2.0194666056626134,586.5825523575937,1.072949802832232,14.432743266601435,92.12960518663785
2.029932737530274,587.9475245250742,1.0387869349086205,14.465593081955284,92.380792559208
2.0403988693979342,589.322616080257,1.0019840591726545,14.493091552748652,92.63242947705085
2.048035257615806,590.3323240485043,0.9737727987664616,14.509886172993298,92.81511961832425
2.055671645833678,591.3474444925703,0.9446555786019248,14.52439369531686,92.99885775453816
2.0633080340515497,592.3679881309723,0.9148689282415315,14.536882216707694,93.18391453420831
2.0905212779983446,596.0490777723256,0.806516250296231,14.566986797211335,93.84116071998086
2.1177345219451396,599.7996668687509,0.7035152313785537,14.584803212647097,94.49009416573924
2.1449477658919345,603.6202308135773,0.6163508390444485,14.605034045380053,95.12839968164879
2.1721610098387294,607.511243501049,0.5539723447822533,14.6440892139336,95.76451199832408
2.181503222227269,608.8633446891247,0.5394746543475699,14.664227436276077,95.98118434672918
2.190845434615808,610.2238228053009,0.5287304697306606,14.68851425051621,96.19694395465805
2.2001876470043475,611.5926966464489,0.5217702001857016,14.717105567536388,96.41044882577867
2.2085258504295946,612.8215630616406,0.5187424528570092,14.746293698798878,96.59770433832934
2.2168640538548416,614.0571454789307,0.5186815561053607,14.779414963557214,96.7841335469406
2.2252022572800887,615.2994568459827,0.5214857549956392,14.816455622909288,96.96892691190934
2.2334855620900824,616.5402641766718,0.5269801736506894,14.857191960174818,97.15111631496968
2.241768866900076,617.7877373363812,0.5350057908574527,14.901915323756517,97.33250604252072
2.25005217171007,619.0418887709559,0.5453553261171791,14.950544404778181,97.51310339683144
2.2611384578485048,620.7309046933761,0.5623948832572979,15.02169807024371,97.75525888747386
2.2722247439869396,622.4319352574145,0.5824848343057486,15.09911013911962,97.99614384152116
2.2833110301253745,624.1450100535457,0.6048712828622893,15.182048632084898,98.23523794119367
2.30457633003282,627.464772777543,0.6514678484751114,15.35344373397927,98.68633774256115
2.3258416299402658,630.8291668041584,0.6971877781318401,15.53429817961082,99.12608488614235
2.3471069298477114,634.2383870775304,0.7359990135876326,15.71741524702897,99.56139379152003
2.368372229755157,637.6926301876746,0.7622729393580469,15.89420839202816,99.99303814926587
2.3765198190441787,639.0280609541467,0.7680115638933435,15.958451586246108,100.15732938521622
2.3846674083332005,640.3701404799422,0.7710763256152563,16.02017393609595,100.32133495764711
2.392814997622222,641.7188796603207,0.7713430122248265,16.079064322674828,100.48547836649267
2.410147158313954,644.6102269646868,0.7623049668774253,16.193374886425726,100.83426374020353
2.4274793190056863,647.5318652506188,0.7402300481317793,16.291290851836,101.1828457971704
2.4448114796974183,650.4838991754779,0.7059249537979532,16.37163666116023,101.53017259541554
2.452991409269188,651.8876988210648,0.685845008692273,16.403415492325877,101.69374760724237
2.4611713388409573,653.298302924132,0.6636314436292767,16.43145218372393,101.85732933198841
2.469351268412727,654.7157224115222,0.6395800697131433,16.455802449268013,102.01989524738909
2.479888389230655,656.5516590618352,0.6064486192251836,16.48245040026563,102.22944524649058
2.4904255100485835,658.3989463430053,0.5715732823962381,16.504402991549895,102.43900331612765
2.500962630866512,660.2576074880291,0.5357446506892599,16.522338403046422,102.64735322802579
2.5277133220501113,665.0274446953088,0.4456978399611575,16.55663019837775,103.17406673735452
2.554464013233711,669.8711187782868,0.3680900110722494,16.589294591112598,103.6927670021992
2.5812147044173104,674.7889944681442,0.31325685422362387,16.637558736458164,104.20076864402358
2.60796539560091,679.7814351990534,0.28692604408046435,16.715416855602676,104.69544601837454
2.617093740647238,681.5021726378864,0.284634067693223,16.750414495741666,104.8608415922483
2.626222085693566,683.2316477658329,0.28548964544358674,16.78989380823517,105.02458183394143
2.635350430739894,684.9698742176993,0.2891649469477034,16.83380317347298,105.18708460747203
2.6445091189060084,686.722687254406,0.2953239552782261,16.88203449515056,105.34826608538283
2.653667807072123,688.4843370264061,0.30353190006049113,16.934119988018313,105.50745328007376
2.6628264952382374,690.2548369055405,0.3133087970051156,16.989776296225735,105.66554665591258
2.6772490355295475,693.0608875435574,0.3304845769296782,17.08305837365384,105.91123351689768
2.6916715758208576,695.8889684662466,0.34807526191274873,17.181050462866992,106.15183807458514
2.7060941161121677,698.7391294905483,0.36393118480357867,17.280321639397176,106.38281502632148
2.7397108905464984,705.4683886065342,0.38468124641344426,17.506575116932034,106.91508670059122
2.7587042388860397,709.323782899475,0.37974179182254164,17.624522595608497,107.24389058958744
2.777697587225581,713.2178631489429,0.3611166985822736,17.726565812656,107.57050151906026
2.7804004161835096,713.7751575758402,0.35732989346102495,17.739609786022065,107.61702235926214
2.7831032451414384,714.3332381759354,0.3532750943031258,17.752279319140005,107.66354677394541
2.785806074099367,714.8921052888767,0.3489564719480965,17.76457939500309,107.71008369159881
2.790143311885999,715.7905743173532,0.34567066629794074,18.060338829243953,109.6206017406954
2.7905320060945686,715.8712011324288,0.340958828910594,17.79655361221418,107.86678510017303
2.7909207003031384,715.9518439793857,0.33626353018193744,17.53272496541371,106.11293936969508
2.7916980887202776,716.1131612070616,0.32692268859497947,17.00490080750282,102.60482052822908
2.7924754771374167,716.2745404420543,0.31756394919020225,16.476883328368476,99.09568125048493
2.793252865554556,716.4359795637923,0.3082415990671043,15.94873496341508,95.58640536291392
2.801026749725949,718.0530227783518,0.2174022926721903,10.658660917982427,60.477633739845835
2.8088006338973424,719.6737206396932,0.13101862919006818,5.356306798466209,25.354636085317996
2.8165745180687356,721.2959509645369,0.04963739522949707,0.04689534043677346,-9.755174926882292
2.819128049593073,721.8288409203607,0.024215973993059713,-1.6979878496178242,-21.280801311125792
2.82168158111741,722.3616004079416,0.009164531767898523,-2.674683437734901,-27.71968874128049
2.823720922882741,722.7869598004485,0.007133876791002497,-2.6758826947549963,-27.708758226273677
2.825760264648072,723.2122039531413,0.0050754756395826744,-2.677178994564084,-27.697820643312443
2.827799606413403,723.6373329120241,0.0029934556094526714,-2.6785674893878495,-27.686876726412372
2.8318782899440658,724.4872454174651,-0.0012263430212777733,-2.6816027942860585,-27.664972655054203
2.8359569734747283,725.3366977060606,-0.00549077773950532,-2.6849459144906143,-27.643052477514615
2.840035657005391,726.185690134254,-0.009768264946086149,-2.6885561151176955,-27.621122356056492
2.8441143405360534,727.034223066864,-0.014027177699578255,-2.6923911350636827,-27.59918868087449
2.8514005814526038,728.5489167780613,-0.021479337287027445,-2.6996470637283485,-27.56002045612532
2.858686822369154,730.0621473465103,-0.02860963885842762,-2.7072400474738156,-27.520898313114582
2.8659730632857046,731.5739168485748,-0.03526532537425957,-2.7149306898102212,-27.481858310720437
2.898390791875408,738.2823772066738,-0.05637282396873439,-2.7450883776183965,-27.309944235414225
2.9308085204651113,744.9621383459524,-0.0583881878528169,-2.7568313540302185,-27.142700778664505
2.9632262490548147,751.6133742209352,-0.04177563181650079,-2.74310708989524,-26.981169096806394
2.995643977644518,758.2362580779716,-0.013290923500990056,-2.7037867667422133,-26.806921146027232
3.011899202232691,761.5465564464043,0.0024536000137960535,-2.6783292979283106,-26.720953597544554
3.028154426820864,764.8497938155673,0.017431283411949137,-2.6523947633970053,-26.642753831692186
3.0444096514090373,768.1459911248405,0.03050159274418463,-2.627084791543555,-26.567287730678466
3.0723586883932756,773.7970276870561,0.04657515591198923,-2.5876561547174615,-26.435438358372156
3.100307725377514,779.4274186727911,0.05255304919972655,-2.5572477810187464,-26.290296036262127
3.1282567623617523,785.03727158721,0.04928894865168593,-2.5406340334891464,-26.14900778684633
3.1562057993459907,790.6266971575196,0.03956727394044007,-2.5377984577486656,-26.018180880116777
3.183725254180477,796.1103634450474,0.02447536515330962,-2.5375704062320983,-25.885148035286697
3.2112447090149634,801.5744265953175,-0.014072344362917155,-2.512541973501692,-25.75055128907476
3.2200509894234037,803.3188116297132,-0.024476651870287146,-2.5055228963015117,-25.70763558564064
3.228857269831844,805.0612030408229,-0.033402731712826254,-2.499008670117877,-25.664788252393272
3.2376635502402844,806.8016041317494,-0.04062957665562214,-2.493054087762581,-25.62199889946229
3.2552761110571655,810.2764502761913,-0.04950412933817786,-2.4827755582763804,-25.536595081094003
3.2728886718740466,813.743374893181,-0.05080149408137917,-2.4744914967062006,-25.451443955844688
3.2905012326909278,817.202404128335,-0.04489530553825041,-2.468385752806935,-25.37002527624003
3.3125743994199097,821.5263751970397,-0.02949167156261823,-2.463145679299257,-25.274962541201745
3.3283984196235084,824.6186010757201,-0.014221957601589614,-2.459948699227527,-25.207128003962328
3.344222439827107,827.7045152406585,0.003077359112943335,-2.45627626097143,-25.13653867871151
3.3600464600307056,830.7841362448678,0.021057752730503365,-2.4511705522965492,-25.05938834882653
3.3839350310109206,835.4213663104356,0.04714547750036403,-2.4425662730624604,-24.94542435037285
3.4078236019911357,840.0443525818091,0.0682234303528125,-2.433998796426343,-24.84631037864666
3.4317121729713507,844.653160171865,0.08108606763534046,-2.422880714709962,-24.74837834264503
3.4556007439515657,849.2478481476154,0.08445703834200996,-2.4081198472753376,-24.643791830925476
3.4845128036470863,854.7899432545845,0.07651523561275342,-2.3872816746252674,-24.515101070928353
3.513424863342607,860.3115436824856,0.05899808135828114,-2.366572402657248,-24.3958072558912
3.5423369230381274,865.8127493715386,0.03812184956278121,-2.3473798405326893,-24.28264390123301
3.571248982733648,871.293659445337,0.02015788476413607,-2.3287099407254135,-24.16015566441486
3.6001610424291686,876.7543743722903,0.009729166243902696,-2.3120203119523253,-24.03320075554073
3.629073102124689,882.1949948650996,0.00892921900610898,-2.3004574347373725,-23.92215838835975
3.6579851618202097,887.6156194133172,0.01706718797561412,-2.290731322420463,-23.81127758747596
3.6868972215157303,893.0163441161644,0.03138811692626444,-2.2800111125775597,-23.689782306938927
3.7215016351311663,899.4543643370307,0.05147246434753322,-2.2672431342545716,-23.548144553599936
3.7561060487466023,905.8641809069605,0.06869737949965836,-2.2547806541764133,-23.42032945340855
3.7907104623620382,912.2459546909776,0.07834697011010995,-2.2381511330674937,-23.282726324046713
3.825314875977474,918.5998480604202,0.07891249201945119,-2.219404191876945,-23.146345625142633
3.85991928959291,924.9260202219685,0.0719989906701088,-2.2015522112383934,-23.023873537704926
3.904248068144179,932.9896907213313,0.05797746476264766,-2.17661546448989,-22.855248268794302
3.9378628545178582,939.074463768247,0.049133858758633055,-2.159322968024597,-22.729661162051165
3.9714776408915373,945.1335502270682,0.045317409311948845,-2.14533387946241,-22.614486482719
4.005092427265216,951.1670879304482,0.047432206060789,-2.1306364191753095,-22.486353746616462
4.0387072136388955,957.1752149256384,0.05463597812354079,-2.1178443489205914,-22.364560931389406
4.072322000012575,963.1580675303951,0.0646161195116881,-2.1067747214201584,-22.25258874805987
4.111171367288315,970.0412753286844,0.07589130338321713,-2.0915611801597414,-22.113358205672537
4.150020734564055,976.8911085239818,0.08358521501015406,-2.0753172932049977,-21.976794783972338
4.188870101839796,983.7077697009698,0.08600908791223087,-2.059242436352444,-21.850482078797437
4.227719469115536,990.4914564361557,0.08348441900374719,-2.040573698727114,-21.715151208622522
4.266568836391277,997.2423665668384,0.0782809096436435,-2.022947191358709,-21.58783604511909
4.3149854220885056,1005.6102014744941,0.07205248423066593,-2.00195970380042,-21.431176650158616
4.353512592290942,1012.23294155978,0.07029184665391217,-1.9854764369229763,-21.30129787210658
4.392039762493378,1018.82405613418,0.07253977926010614,-1.9723384829067458,-21.185513095757315
4.430566932695815,1025.3837253706781,0.07799697073315257,-1.959906907422938,-21.070877765666857
4.469094102898251,1031.912122286115,0.0847758763274499,-1.9471306799299364,-20.954875406624883
4.507621273100687,1038.409419447789,0.07992428760862202,-1.9271183518445345,-20.82888015144557
4.538640108624575,1043.618013043071,0.06605768799812338,-1.9086125767746627,-20.73939814246283
4.569658944148463,1048.8066504949875,0.05484947038946988,-1.8916809604008922,-20.650538986405362
4.600677779672351,1053.9754238497715,0.048250063714415564,-1.8755970277682057,-20.55242778626047
4.631696615196239,1059.1244201838992,0.04775365044884242,-1.8636533024679116,-20.46068384403896
4.65747678079788,1063.3888340643596,0.05200000412283266,-1.8568268687949758,-20.389262203419683
4.683256946399521,1067.6396982759695,0.05935298487313101,-1.8505580581450662,-20.312371059111708
4.709037112001162,1071.8770635757714,0.06845364149562508,-1.84453675818901,-20.232306761800825
4.734817277602803,1076.1009808550045,0.07790776308579159,-1.8396153399956232,-20.158235713027764
4.770177287391179,1081.8727120224137,0.08905974810739876,-1.8328879558543136,-20.06292684204973
4.805537297179555,1087.6193580818806,0.09582542477801717,-1.8240637878665213,-19.96895090616242
4.840897306967931,1093.341039133815,0.09698923980797712,-1.8116946270727297,-19.871115363776447
4.870029711841146,1098.0363472434738,0.0938001896397519,-1.7986500133964014,-19.78615129262067
4.89916211671436,1102.7148601612319,0.0878883047538763,-1.7855934627142152,-19.709057149028265
4.928294521587575,1107.3766447399935,0.08048866247050482,-1.772438800925159,-19.635634240199764
4.95742692646079,1112.0217652565407,0.07299032116455122,-1.7593549067234735,-19.56279973278214
4.994576434088856,1117.9211260424988,0.06526248810387864,-1.743275330209187,-19.468025879986122
5.031725941716922,1123.7936235015488,0.061128914382276876,-1.7274923406209934,-19.364645724290572
5.068875449344988,1129.63939244334,0.06140253369902036,-1.7155182090495718,-19.270733877876264
5.106024956973054,1135.4585638934532,0.06551089575044051,-1.7060102333999003,-19.18034354260314
5.135466502048348,1140.0515474976617,0.07044176229293113,-1.699331477624236,-19.10917959263811
5.1649080471236415,1144.6279756964313,0.07578126456749505,-1.6921701848775246,-19.03445519055801
5.194349592198935,1149.1879092608644,0.08067689792051101,-1.6840114969566953,-18.955684986751347
5.253232682349522,1158.2585100697252,0.08742192695110831,-1.668787434279118,-18.81405119289016
5.292131731029128,1164.2148565605846,0.08805187842554273,-1.6574248595252579,-18.72453350159451
5.331030779708734,1170.1428728881333,0.08554109199813778,-1.6437970191897362,-18.631408132924356
5.36992982838834,1176.042702143034,0.08083616411658728,-1.6281361835981014,-18.533236399605553
5.408828877067946,1181.914483510706,0.07553539260369599,-1.6143111659287677,-18.447218098313005
5.447727925747552,1187.758351320436,0.0709661275856803,-1.6009764961320638,-18.362003309590612
5.486626974427158,1193.5744375626437,0.06818393917594001,-1.5879476306837517,-18.27364090974806
5.525526023106764,1199.3628768051417,0.06767521786689977,-1.5749934566264248,-18.179573410237232
5.56442507178637,1205.123803313309,0.06948013094465806,-1.564896881810263,-18.095247421243258
5.603324120465976,1210.8573477497978,0.07284754424150935,-1.5558681767448013,-18.012823780058287
5.6422231691455815,1216.5636383912026,0.0767460223385697,-1.5465197313071435,-17.927531422029322
5.6811222178251874,1222.242805382757,0.08013477895445073,-1.5359159618824185,-17.83714906518122
5.720021266504793,1227.8949780802122,0.08237426976700343,-1.5263444806523747,-17.756048568650524
5.758920315184399,1233.5202818977582,0.08296874540917491,-1.5163090993120292,-17.677318263739817
5.8027775271125615,1239.8305285600115,0.08167530202925666,-1.5034220666787204,-17.585771074069438
5.846634739040724,1246.1069537109713,0.07884491120485945,-1.4887577166877273,-17.48917199925005
5.890491950968886,1252.3497340865997,0.07559456204816828,-1.4758951278031343,-17.403884812071116
5.934349162897048,1258.5590378749016,0.07277277761135914,-1.4633622659737775,-17.319498785047006
5.995030205059325,1267.0953723364614,0.0706128076159728,-1.445135677028456,-17.193654443626247
6.045056780629086,1274.0852478704633,0.07103822350673349,-1.4324152686295921,-17.096732380720212
6.095083356198846,1281.0323327488827,0.07311444023098551,-1.4212192954153098,-17.003877198916882
6.145109931768607,1287.9368639234922,0.07595336030879235,-1.4105308230888176,-16.912082484513615
6.1951365073383675,1294.7990770154759,0.07841357661562014,-1.39859294218953,-16.81514921033543
6.250336424570165,1302.3220971888163,0.07975745231233648,-1.384996377550415,-16.71025874606872
6.305536341801962,1309.7941911465975,0.0792983304230571,-1.3718948146892438,-16.613455969538986
6.360736259033759,1317.215662441956,0.07726283660537936,-1.3581610231960828,-16.51813424420953
6.415936176265556,1324.5868126198072,0.07442670952961958,-1.342543963264136,-16.4156713890883
6.479387823482763,1332.9980801290412,0.07174518095753624,-1.3262731026386487,-16.30579277514962
6.5428394706999695,1341.343692582504,0.07089122485435022,-1.3117969983270772,-16.200980400213723
6.553949423019044,1342.798230735534,0.0710106357199944,-1.3094156882508579,-16.182763132249868
6.565059375338119,1344.2507715153065,0.07119065712584474,-1.307070499740449,-16.16458761153119
6.576169327657193,1345.7013171057333,0.07142171789391653,-1.3047566782041784,-16.146454749830582
6.587279279976268,1347.1498697215643,0.0716968781362788,-1.3024707512435068,-16.128365164823556
6.609499184614417,1350.0410083456204,0.07231771435073084,-1.2975675555720525,-16.090347963462506
6.631719089252566,1352.9242057245172,0.07297392382824552,-1.2919546089321883,-16.048672858579593
6.653938993890715,1355.7994800251306,0.07369679174274098,-1.2868226912542158,-16.009376023555937
6.6977912468415415,1361.4508117873313,0.07515944039221079,-1.2782068697702942,-15.939695506450718
6.741643499792368,1367.0714836295733,0.07624915124126193,-1.2694922327358225,-15.87078529169945
6.785495752743195,1372.6616375999358,0.0767215404695267,-1.2605535467459554,-15.80266089377615
6.829348005694022,1378.221408135061,0.07644333774518874,-1.2503989715131874,-15.730670321847493
6.8931678897960635,1386.2587497233637,0.0750464921374767,-1.2353959888782617,-15.627981249580046
6.956987773898105,1394.2324337645725,0.07317151659389774,-1.2215588052964523,-15.533099521433613
7.020807658000147,1402.1428490730696,0.07158415832416498,-1.208021519508407,-15.439615611368595
7.084627542102189,1409.9903836022802,0.07076456580072428,-1.1929607269708729,-15.337209145060815
7.148447426204231,1417.775438085547,0.07111429543008921,-1.1807497026611788,-15.246480580163778
7.212267310306273,1425.498392897076,0.07210086701067872,-1.1690269638966995,-15.15702265081343
7.276087194408315,1433.159614405508,0.07312888875669808,-1.1574868527328652,-15.068873249471183
7.339907078510357,1440.7594685472316,0.0735122531569886,-1.1437953290213605,-14.972515116419583
7.430346017881404,1451.4248029295347,0.0730958769882643,-1.1269956643398344,-14.852103214138431
7.498737189211551,1459.4093406025952,0.07191191565849595,-1.1140337587943367,-14.76283108261006
7.567128360541697,1467.3248325288105,0.07046545819562965,-1.100381115317255,-14.671621013913787
7.635519531871844,1475.1717056850064,0.06930543983948494,-1.0865749763227937,-14.57964965513377
7.7039107032019905,1482.950373002265,0.06890494151020068,-1.0745070939839518,-14.494605151185995
7.790980305229807,1492.755437087018,0.06932984009807167,-1.0598473403146846,-14.388118348154924
7.807259507439515,1494.5765419958273,0.0695139930446115,-1.0571611760515554,-14.368302083433605
7.823538709649222,1496.3938401385678,0.06965933020841038,-1.0538857505763075,-14.345878008484522
7.83981791185893,1498.2073367975577,0.06980469187817723,-1.050623981816323,-14.323557618764122
7.872376316278345,1501.8229548539662,0.07011100386546629,-1.0447624239534616,-14.282063229944013
7.90493472069776,1505.4234340086534,0.07039206874642755,-1.0395067208937916,-14.243572383440181
7.937493125117175,1509.0088142419695,0.0705701043446979,-1.0342313132787884,-14.20537809433101
8.009032141873405,1516.833940261016,0.07055174823897098,-1.0225443911378385,-14.122492861217667
8.080571158629635,1524.5867695005809,0.06996049096480954,-1.0106654650897258,-14.040785768238427
8.152110175385864,1532.2677542297445,0.06926106961117819,-0.995759368162079,-13.9534311626
8.16641797873711,1533.7953695407857,0.06950677047936323,-0.991972730307033,-13.93790365839073
8.180725782088356,1535.3201319850793,0.06973723861202066,-0.9882450403676201,-13.9224160166949
8.195033585439601,1536.842044454014,0.06994922840021697,-0.9845975336621149,-13.90696299161729
8.223649192142092,1539.8773305453315,0.07030685965262554,-0.9776068562422644,-13.876145087892052
8.252264798844584,1542.9012528236492,0.07055752393083739,-0.9711328394134771,-13.845417065119646
8.280880405547075,1545.9138378330822,0.07068479417299793,-0.9652756577869248,-13.814753207405946
8.309496012249566,1548.915110889894,0.07068293120471249,-0.9600786633468106,-13.784140854853625
8.383741884955205,1556.6496242289052,0.07012980503266664,-0.9494942427717297,-13.704976995304833
8.457987757660844,1564.30860057854,0.06886961458642492,-0.9404877993400913,-13.619593722908261
8.51805281047381,1570.4497552596786,0.06786935408963442,-0.9351710139105596,-13.556610085282989
8.578117863286776,1576.5419987741282,0.06707179462343849,-0.9291846057409856,-13.49496693986424
8.638182916099742,1582.5855591507825,0.06662806744593931,-0.9216081872707147,-13.43452092497095
8.698247968912709,1588.5806524352558,0.06656027800153212,-0.9122629794304175,-13.37530895115825
8.758313021725675,1594.527493846726,0.0666740031944799,-0.9004131555000411,-13.31258285325454
8.840115521977681,1602.5492705613278,0.06710243313775666,-0.8844459053771444,-13.233242053937536
8.905066257901144,1608.8554183695828,0.06736375686501586,-0.8726091767223251,-13.1727090603199
8.970016993824606,1615.1059969954547,0.06738067683362449,-0.8619264960083867,-13.112794884959813
9.034967729748068,1621.3012596797348,0.06711910147062643,-0.8526312733239081,-13.053420137737808
9.09991846567153,1627.441455834944,0.06661669922753934,-0.8444098941656514,-12.994046795406696
9.164869201594993,1633.5268386452904,0.06588086155735275,-0.8357320065232535,-12.930581868901692
9.249092508821086,1641.3367103243556,0.06508946134998383,-0.8265337404928507,-12.856514464456913
9.333315816047179,1649.0553800307039,0.06448389967603406,-0.8167065505700306,-12.783987523861475
9.417539123273272,1656.6833642467304,0.06414823996068626,-0.8057553084394782,-12.713100293832728
9.501762430499365,1664.2211733034,0.06391794142212191,-0.7925163782351166,-12.638966303328566
9.585985737725458,1671.6693200278232,0.06388810867993074,-0.7800311087657004,-12.570738593142835
9.695947283626953,1681.2594439542115,0.06377490358404965,-0.7643543167703025,-12.484145351781523
9.780088412057772,1688.4956863253617,0.06347132956765572,-0.7534500455370298,-12.41904048222628
9.86422954048859,1695.6440148981135,0.06286164456016441,-0.7425243767875425,-12.350888082581763
9.94837066891941,1702.7048862200575,0.062214955412488115,-0.7332614464662399,-12.287007977397842
10.032511797350228,1709.6787625646418,0.061588123146512054,-0.72444649091247,-12.225080086572397
10.116652925781047,1716.566093874469,0.06106166645223053,-0.7153350533172553,-12.164385364767135
10.199704937156477,1723.2798212066207,0.060673144607945734,-0.7058464860581278,-12.105725420589557
10.282756948531908,1729.9100470419612,0.060391974362410505,-0.6959294775120033,-12.04827478399074
10.365808959907339,1736.4571765805688,0.06004618775566334,-0.6846484950149405,-11.987968266561749
10.44886097128277,1742.9216055723455,0.059803767427559155,-0.6746139829813808,-11.93263059021345
10.546897175810159,1750.4464467103246,0.05944350326803108,-0.6632882577470486,-11.868702091963755
10.644933380337548,1757.857217488188,0.058964791683044616,-0.6526464975710924,-11.805985379532109
10.742969584864937,1765.154521359016,0.058380786991406565,-0.6426620332251278,-11.744453922597335
10.841005789392327,1772.33895747647,0.05763732224180789,-0.6321340384954481,-11.680954526780805
10.986932117066736,1782.8251768611751,0.05669086036712462,-0.6181190727109063,-11.593324838246472
11.101604755409461,1790.8921935381932,0.056062060881736084,-0.6069806417282534,-11.52685116174579
11.216277393752186,1798.8076347541903,0.05555311805584431,-0.5954636889201589,-11.462223051427271
11.330950032094911,1806.5723534706078,0.055080009227979954,-0.5834214915086634,-11.398358702562566
11.445622670437636,1814.1871853854968,0.05455264526913349,-0.5712548150806677,-11.335133726130364
11.560295308780361,1821.6529475070886,0.05400817478577687,-0.5603573351682068,-11.275415216601164
11.664247451300515,1828.2926059525014,0.05342396275172009,-0.5510636401677013,-11.222452592936556
11.768199593820668,1834.810995874669,0.052782245022889654,-0.5422167116826809,-11.170608875175317
11.872151736340822,1841.2086754834572,0.05212675625274582,-0.5336235424254617,-11.11992260052918
11.976103878860975,1847.48620011093,0.05140490045400476,-0.5242593468785461,-11.068168450795714
12.11342985158071,1855.5958266260438,0.05064512268733984,-0.512863609149134,-11.004609363451557
12.250755824300445,1863.4979115125402,0.04998271357878241,-0.5014011247369146,-10.943336205352718
12.38808179702018,1871.193618454457,0.04937548209792022,-0.48994233638367013,-10.884067832995738
12.525407769739914,1878.6840684374497,0.048772693596265654,-0.4787136204733052,-10.826672872521492
12.662733742459649,1885.9703443064593,0.04813202262252561,-0.46791706532367616,-10.771023526680219
12.800059715179383,1893.0535043229474,0.047346715025854316,-0.4568873146320043,-10.715225139139351
12.937385687899118,1899.9345800226033,0.04660450194281632,-0.44716572902429547,-10.662937278430032
13.074711660618853,1906.6145647766887,0.04584247211896811,-0.4378527078110051,-10.612244091037022
13.212037633338587,1913.0944173067958,0.04509398246705242,-0.42880694023528526,-10.563156695832802
13.349363606058322,1919.3750637305122,0.044385713085871255,-0.41991152848818153,-10.515682770886453
13.511698496412592,1926.5437931073398,0.04361215716556953,-0.40952123245782057,-10.461621241875385
13.674033386766862,1933.4368355025017,0.04282618595681744,-0.39865868842315016,-10.408470755050054
13.836368277121132,1940.0555721882552,0.04216063616856509,-0.3887199665373108,-10.358703215369076
13.998703167475401,1946.4013249817856,0.04151277663937021,-0.37916375268240765,-10.310841683760021
14.20239508218525,1953.979509795495,0.040699007310312625,-0.3678249335110554,-10.25330146355357
14.351752705434636,1959.265776210458,0.040097368899765666,-0.3600245079455198,-10.212765815973706
14.501110328684023,1964.324220876829,0.039495330100485886,-0.3526333677706379,-10.173563131186102
14.65046795193341,1969.1557158100982,0.03889730019816445,-0.34557211725031556,-10.135599611599963
14.799825575182796,1973.7611109336192,0.038263343933253584,-0.3383889790099554,-10.09826142035439
14.982133138191429,1979.0772834711347,0.03759269277252448,-0.33053516650193543,-10.055179878652236
15.164440701200062,1984.0592633827855,0.036960731417985886,-0.3229712843672593,-10.013771948546587
15.346748264208696,1988.7084244737528,0.036360495461779656,-0.3156152072234996,-9.97392964815337
15.529055827217329,1993.026086907277,0.035776771895406546,-0.3084009385086149,-9.935522122444423
15.711363390225962,1997.0135265813879,0.03518951520074742,-0.30125884630080296,-9.898404152981383
15.922218655502025,2001.2151457312075,0.03447633053749173,-0.2929509982793766,-9.85690406439928
16.133073920778088,2004.9785226879296,0.03368936272166818,-0.2843551975767933,-9.816790690549343
16.34392918605415,2008.3054409736608,0.03278477990089924,-0.2751326681786665,-9.777999346295394
16.510871620783735,2010.6310549849131,0.031952408081397356,-0.2671136096218216,-9.748260874700776
16.67781405551332,2012.6849848481602,0.030988445600895795,-0.25821784699392547,-9.719486775518636
16.844756490242904,2014.468033649063,0.029827815206405418,-0.24792766565006696,-9.691700665466307
17.01169892497249,2015.9809719824173,0.02851803567127719,-0.23661244082143804,-9.66554855370294
17.178641359702073,2017.2245284979076,0.02699798274436198,-0.22379738709954683,-9.641288118948273
17.345583794431658,2018.1993773685913,0.02525546558290049,-0.2093912867657815,-9.619559333113688
17.512526229161242,2018.9061212359031,0.023298537630976692,-0.1934595204589797,-9.60122995519066
17.642083071325988,2019.27015687042,0.02165677247896115,-0.18023583470205903,-9.590054001574515
17.771428571428572,2019.4730185820945,0.01995219278144345,-0.16660608618072384,-9.582216559483415
17.776807632048737,2019.4778435439132,0.01988056182612846,-0.166035280132645,-9.58197739378911
17.7821866926689,2019.4823912647075,0.01980893235714994,-0.16546461254869246,-9.581745131986487
17.792944813909234,2019.49093223708,0.01966599137921542,-0.16432590906282135,-9.581291587209709
17.803702935149566,2019.4983642967381,0.019523106406631168,-0.16318814803737067,-9.58086636567104
17.8144610563899,2019.504687493178,0.019380324436210284,-0.16205168871141276,-9.580469863104328
17.870439455595953,2019.5196943654144,0.01864097782987376,-0.15617412075892492,-9.578885212135308
17.912122322486642,2019.5113716000933,0.01809755575404891,-0.15186091400150034,-9.578249842276032
18.009783588583385,2019.4266986300659,0.016869892704685405,-0.14213305466324314,-9.578716359336395
18.10744485468013,2019.2506638974348,0.015749373513048157,-0.133264275483722,-9.582138853720142
18.205106120776872,2018.9832346384594,0.014798350399612314,-0.1257281450891407,-9.588738848987031
18.34113474232848,2018.4583149832872,0.013892574992266156,-0.11848551036771957,-9.603491466470375
18.47716336388009,2017.7556851314534,0.013669286135474079,-0.11650229774504756,-9.624710262998349
18.6131919854317,2016.8749529104189,0.014344840149254828,-0.12140319382484854,-9.651862030337993
18.74922060698331,2015.8156178728864,0.01610401776649273,-0.13456086985577187,-9.683727866567342
18.88524922853492,2014.5770937342986,0.01905569647339589,-0.15675645346146183,-9.718358737096619
18.98877311054147,2013.5140506007263,0.022097330831186923,-0.1796374170185686,-9.744972673184671
19.092296992548018,2012.346570253526,0.025789993181938087,-0.2073874783535814,-9.770166330888273
19.195820874554567,2011.0743831429415,0.029932164505538594,-0.23842534740674637,-9.792818367710709
19.271428571428572,2010.0789520198807,0.03314975226331285,-0.26245343510368,-9.806850671184748
19.274030220606807,2010.0438965587043,6.257273684852473,-48.885100328610214,23.829789961422986
19.276631869785042,2010.0090000999724,6.18193567643896,-48.297873570927635,23.491091323005225
19.281835168141512,2009.9395207280238,6.034441764628839,-47.148204491479405,22.827740390824605
19.287038466497982,2009.8706595971637,5.89224192075019,-46.03977978917624,22.188320930894104
19.292241764854452,2009.8023993548616,5.755085971654344,-44.97065111378107,21.571704384530936
19.317967329182746,2009.47322799124,5.1437661565163335,-40.20516460264428,18.825238022165998
19.34369289351104,2009.1565149430614,4.626281355391532,-36.17080031618945,16.503220546470615
19.369418457839334,2008.8507373871046,4.184465487801379,-32.726066914652094,14.52376249922555
19.395144022167628,2008.5545849643054,3.8042843080504842,-29.76164771864135,12.82357093414853
19.43405596539798,2008.1224371188991,3.322575230238923,-26.005231876476678,10.6752442419014
19.472967908628334,2007.706508918734,2.9290914911905044,-22.936499520238883,8.927774208823063
19.511879851858687,2007.304154207847,2.6036223786792236,-20.397989326455896,7.490055349488651
19.55079179508904,2006.9131684434362,2.3313210189544797,-18.274017397648876,6.295056017230884
19.589703738319393,2006.5317390785697,2.1012209978445506,-16.479128516502037,5.293321647711893
19.655947689712356,2005.9001754881308,1.784017082471283,-14.004703352567722,3.9307726220538672
19.72219164110532,2005.2859994623793,1.5368473647123553,-12.076621398869547,2.8925542251788854
19.78843559249828,2004.6845646710854,1.3402832698011604,-10.543425738539998,2.090560696842242
19.854679543891244,2004.0923700073872,1.1813082852411014,-9.303630916487231,1.465905044764335
19.920923495284207,2003.5066655566795,1.050755601770724,-8.285751482848218,0.9768137886361674
19.98716744667717,2002.9252816238895,0.9420414717169702,-7.4384338241759425,0.5929850168858678
20.096872763463065,2001.9676060661527,0.7977270860692018,-6.314321469280002,0.1315468397564616
20.20657808024896,2001.0116631200688,0.6855030581442948,-5.441020031204689,-0.17210103190342116
20.316283397034855,2000.0537490193403,0.5957861372263846,-4.743690437581295,-0.3651948484846161
20.42598871382075,1999.0915244857915,0.5223067491294248,-4.173336313348944,-0.4800793086088998
20.535694030606646,1998.1235770602216,0.46084756429650503,-3.696971149339016,-0.5397543730719333
20.64539934739254,1997.1491725076576,0.4085211786942477,-3.2919892205741697,-0.5608283119539165
20.838353157695103,1995.4190831303188,0.33288125339717717,-2.7077009243258874,-0.539191920725738
21.031306967997665,1993.6689947099737,0.2724547593977097,-2.24198418892418,-0.4785789569147013
21.224260778300227,1991.9011171032384,0.22314533680991386,-1.8626665425221005,-0.40422894499846707
21.41721458860279,1990.1182276185018,0.18241366599542325,-1.5498093115943414,-0.32980720160058
21.61016839890535,1988.3230341018736,0.14854101392191899,-1.2899411545690715,-0.2623525673523954
21.803122209207913,1986.5180462988822,0.12028881485331615,-1.073386933906126,-0.2045941703426654
22.02586714407344,1984.4249992419257,0.09342547404662796,-0.8676259742933782,-0.15045570078376436
22.24861207893897,1982.3244290432506,0.07161546651838707,-0.7006634069867607,-0.10867663874694282
22.471357013804496,1980.2184314749618,0.053926332075803704,-0.5653008547816071,-0.07719216620668531
22.694101948670024,1978.1085766888789,0.039594593899677684,-0.4556601898907164,-0.05390648147965316
22.916846883535552,1975.9960148802022,0.027994076230784183,-0.36693001119963,-0.036971836914423274
23.19936151670112,1973.3139875672111,0.016422334123609765,-0.27843127511039995,-0.022193875092813703
23.48187614986669,1970.630164952412,0.007592931201212177,-0.210910870506494,-0.0125826459381086
23.76439078303226,1967.9453300646605,0.0008573773519660116,-0.15940364716036837,-0.006382466245702765
24.046905416197827,1965.2599632930653,-0.004276465369234539,-0.12014355152078711,-0.0024586974209387332
24.347425792519196,1962.4032329197776,-0.008429047255608824,-0.08838496234834171,0.00015640067162053724
24.647946168840566,1959.5464794279133,-0.011526283542202555,-0.06469414366263136,0.001677577199109048
24.948466545161935,1956.6898678505445,-0.013837737917224952,-0.04701024621732129,0.0025719408751799064
25.49422655045377,1951.5027429456131,-0.016584519304604233,-0.025986828640450328,0.0033481243050249984
26.039986555745607,1946.3167256287577,-0.018265754882569197,-0.013108957888198517,0.003956614617088564
26.585746561037443,1941.1318020026786,-0.019276916587703103,-0.005351184809293084,0.00428967837993676
27.13150656632928,1935.9479003049307,-0.01984488921754136,-0.0009767014290478367,0.004060251459642066
27.42888241706942,1933.1237701179282,-0.020047820269338445,0.0005927345705462045,0.00393731030154019
27.726258267809563,1930.3000193181356,-0.020198764276640205,0.0017640751468292891,0.003930594499921983
28.023634118549705,1927.476621102356,-0.020311039968956217,0.0026399251150216268,0.0039404328321607715
28.320972526068132,1924.653923170254,-0.020394523322104327,0.0032959843207056583,0.003938528491961737
28.61831093358656,1921.8315720564763,-0.02045644663666431,0.003787436162713616,0.003933248191067807
28.915649341104988,1919.009568942997,-0.0205022109669107,0.004155493455254908,0.003929702646741269
29.509864176513876,1913.3709886864701,-0.020560702980624408,0.004639328064744385,0.00392612210698369
30.104079011922764,1907.7337944610254,-0.020590085461940733,0.004900942205175482,0.003923364168472848
30.69829384733165,1902.0979841304986,-0.020604412040314966,0.005047666976987078,0.003918783419554507
31.29212091999568,1896.467232850615,-0.02061070917449125,0.00513310185185421,0.0039130753706573245
31.885947992659705,1890.83786157477,-0.020612273961826324,0.005182403929078054,0.003908125260177274
32.479775065323736,1885.209869109813,-0.02061100800843704,0.005210070086618712,0.0039045872385448303
35.61949900101192,1855.4759749034906,-0.0205925440673981,0.005266027450477576,0.00388395857090502
38.7592229367001,1825.7803585413235,-0.020564809255241893,0.005250290122096495,0.0038646149288381285
41.89894687238828,1796.1228356597087,-0.020536956223990373,0.005232653825494496,0.00384498582622839
48.27036868611184,1736.0550408496324,-0.02048315446661898,0.005214543416334416,0.003805154358921841
54.641790499835395,1676.141639054566,-0.020430516905892582,0.0052012501648356696,0.003766071861033402
61.01321231355895,1616.381110912279,-0.020378449282580514,0.005188319578029152,0.0037277220082560488
66.96366157333196,1560.705827122543,-0.020330273679757455,0.005176152652235843,0.0036926166930269055
68.53530056884044,1546.0227860734967,-0.020317623290684806,0.005172933052802123,0.003683570494260413
70.10693956434892,1531.3488510537018,-0.020305003875598884,0.005169721113170345,0.003674442138547647
70.28470344123882,1529.6896947911928,-0.019941779251506152,0.006336617195705606,0.0036919495430538054
70.46246731812872,1528.0306554624644,-0.01937580400043089,0.008157651408199714,0.0037180268715980313
70.64023119501861,1526.3717336322734,-0.018892479481571203,0.009712046834879463,0.0037371316949484923
70.99575894879841,1523.05424484813,-0.018130171188390446,0.012161595580722788,0.0037611637641790908
71.35128670257821,1519.7372306575987,-0.017588925477545748,0.013897935682503509,0.003771977141163212
71.706814456358,1516.4206924738755,-0.017209194883524813,0.015113161751779887,0.0037755346649255457
72.54942832144755,1508.562277886342,-0.016748849285630224,0.016574801096755572,0.003768855867486385
73.3920421865371,1500.706541903431,-0.016582649833005406,0.017087243573055244,0.003760956909848632
74.23465605162664,1492.8534819120312,-0.016490914625476957,0.017359292099068137,0.003757801299240387
75.07726991671619,1485.0030929833713,-0.016421760462457656,0.017558420708802817,0.00375542076050622
76.7655835512838,1469.281581013559,-0.01635365068929359,0.01773011945525852,0.003746957124706529
78.4538971858514,1453.5707435601635,-0.01631923755143054,0.017793189634444463,0.003736422569707098
80.14221082041901,1437.8705542446576,-0.016302414979313444,0.017799616803198838,0.00372593426680278
85.55506924629728,1387.6058742948399,-0.016262625315540184,0.017775437446963013,0.0036934627695239582
90.96792767217555,1337.4493452695554,-0.01623209191137606,0.017722699207225245,0.003661719212646415
96.38078609805382,1287.4000871821022,-0.016199066582676256,0.01767930547211144,0.003630450675090715
103.93585758303348,1217.7211303486254,-0.016152914057266005,0.017621056739703416,0.0035870152225853397
111.49092906801314,1148.2471569646555,-0.01610629444337574,0.01756678945431999,0.003546665581831149
119.04600055299281,1078.9755577755914,-0.01605784628520088,0.017520787484547558,0.003504224471819591
120.2002886744734,1068.409680077085,-0.016050244980796362,0.01751461169350648,0.003498164098390886
121.35457679595399,1057.8484619490189,-0.01604286174166811,0.01750778767888187,0.003492128929120605
122.50886491743458,1047.2918962088802,-0.016035653479277955,0.017500453063440523,0.003486018191119315
123.55580928521043,1037.721062253003,-0.01602920229459586,0.01749356722518611,0.00348044716801358
124.15479976227431,1032.2470181731449,-0.02283672442556735,0.02058652728424694,0.0036057640820480966
124.75379023933819,1026.7742816067894,-0.03275088883915899,0.025091839861428183,0.00376348473142629
125.35278071640207,1021.302883511476,-0.0386730342892104,0.02778180280914076,0.0038134093529658235
125.95177119346594,1015.8328403870038,-0.04195073025727205,0.02926930701549899,0.003815263295252092
126.55076167052982,1010.3641578691385,-0.04365955494847394,0.030043497304078768,0.0038028784157043776
127.1497521475937,1004.8968359515619,-0.044503489218567255,0.03042449726178647,0.0037899908179985942
127.95984312218623,997.5048415766179,-0.045030239859834655,0.030660412991080167,0.0037770191888358414
128.76993409677877,990.115326092013,-0.04518921393312264,0.030729188182636875,0.0037685413026460352
129.5800250713713,982.7282845390858,-0.04520747743490775,0.03073403655849638,0.0037624904489035158
131.17801898372443,968.1637623448536,-0.04518645693847318,0.03071772606807533,0.0037521402474148336
132.77601289607756,953.6088222822626,-0.045130004744298,0.03068535657646292,0.0037425777065190177
134.3740068084307,939.0634395622418,-0.04508166592324184,0.030656699618874204,0.0037329481158332877
139.84801095401508,889.3094557151826,-0.044966398733780284,0.030581529788954103,0.0036995461989398713
145.32201509959947,839.6662553995924,-0.04486902708084556,0.030514697040766037,0.003666565317791105
147.09715082067387,823.5914383816438,-0.044838343998134425,0.03049347331879461,0.0036561192454075864
148.87228654174828,807.5281492436486,-0.04480669860817587,0.03047183283630628,0.003645628303631237
149.9146803570036,798.1008379207196,-0.04478787747939641,0.03045902647914347,0.003639483654313495
150.4790605380758,792.9983525964276,-0.05101010958091747,0.03710781002754379,0.004087752905546881
150.94463108929867,788.7902130463804,-0.0613505216587002,0.04815386481208913,0.004787788617596797
151.41020164052154,784.5830793063883,-0.06818378924174694,0.055454900336983214,0.005071637293981782
151.8757721917444,780.3770117737,-0.07245073877468676,0.06001556233459335,0.005138507355296975
152.39891959267288,775.652096470675,-0.07535165412700513,0.06311808817710746,0.005139590743745056
152.92206699360136,770.9285797019752,-0.07698719438907355,0.06486945476877634,0.005117954303195849
153.44521439452984,766.2064607782793,-0.07788420220615047,0.06583224615149946,0.005096090593977002
154.20996378501513,759.3060606574078,-0.07856918546311824,0.06657099219811805,0.0050723240503653165
154.97471317550043,752.4086282571375,-0.07881700987316576,0.06684299131996971,0.005056331109332923
155.73946256598572,745.5141547418712,-0.07887281280363348,0.06690998086437591,0.005044927011678041
157.1826478252768,732.5113833122261,-0.07886058127243943,0.06691090961032577,0.005027074358809429
158.6258330845679,719.5190845140772,-0.07877606537781129,0.06683464536243275,0.005011286021040416
160.06901834385897,706.5372244108202,-0.07868977229346431,0.06675644847366852,0.0049956435223740886
164.20190392316846,669.4180559095407,-0.07849181868479913,0.06658475828019764,0.004950119639168452
168.33478950247795,632.3833886026242,-0.07831207185607324,0.0664321431100534,0.004905107512196195
172.46767508178743,595.4324933197223,-0.07813596117958249,0.06628304968641673,0.004860786060662574
176.05069042494978,563.4650844677708,-0.07798406526106859,0.06615434288754055,0.004823028123640612
176.19302837152054,562.1964441436126,-0.07797804320731061,0.0661492372645143,0.0048215737675254096
176.3353663180913,560.927901534271,-0.07765073989350317,0.06592189955434245,0.004813763842026442
176.47770426466207,559.6594551412253,-0.0696435494657814,0.06038235200856673,0.004659803090198926
176.75639933874564,557.1761325282129,-0.056587218544887706,0.05134969191398061,0.004492061544844448
177.0350944128292,554.6931617494291,-0.04679489871886928,0.04457504086317003,0.0044440212711872665
177.31378948691278,552.2105367320399,-0.03945838494635659,0.03949918890288504,0.004444087593702716
177.87578894517063,547.2052769049119,-0.029702126666740575,0.032748419099514973,0.004479956491841586
178.43778840342847,542.2014273171662,-0.024411411881576854,0.02908629741164366,0.004515907161372957
178.99978786168631,537.1989926178596,-0.021430289791566443,0.027021426539654846,0.004524087881474343
179.56144816797013,532.2009953928726,-0.01968146302191417,0.02580868759388492,0.00451145777983794
180.12310847425394,527.2044218632814,-0.018659211076210512,0.02509837368390073,0.004499470065064069
180.68476878053775,522.2092740057192,-0.01807203055075027,0.02468891791149984,0.004498950971646246
181.24602444732574,517.2191465139606,-0.017735386170777585,0.024452705941242416,0.004503966690702964
181.80728011411372,512.2304364285161,-0.017539962408642733,0.02431413423999891,0.004504096149973025
182.3685357809017,507.2431416845858,-0.017425232836602165,0.024231349754818624,0.004496698509306063
182.92943177339754,502.26045673017364,-0.01735718009729075,0.024180838902262053,0.004487118147447874
183.49032776589337,497.27918480605655,-0.017316022088849966,0.02414892641989038,0.004480803449610282
184.0512237583892,492.29932439515926,-0.01729031121849284,0.02412769819673737,0.00447799144159786
184.61164933087414,487.32504792090486,-0.017273469499982562,0.02411260742681713,0.0044753210751327915
185.1720749033591,482.3521760668617,-0.017261708531311253,0.024101030817622385,0.004470419741377466
185.73250047584403,477.38070739898944,-0.01725287332265433,0.024091479195593953,0.004463924575714361
185.9360720622292,475.57519529600347,-0.017250131574848504,0.02408833380327351,0.004461644522306984
